#No.   Fermi energy(eV)   SHC((hbar/e)*S/cm)
   1     6.000000    0.00000000E+00
   2     6.100000    0.00000000E+00
   3     6.200000    0.00000000E+00
   4     6.300000    0.00000000E+00
   5     6.400000    0.00000000E+00
   6     6.500000    0.00000000E+00
   7     6.600000    0.00000000E+00
   8     6.700000    0.00000000E+00
   9     6.800000    0.00000000E+00
  10     6.900000    0.00000000E+00
  11     7.000000    0.00000000E+00
  12     7.100000    0.00000000E+00
  13     7.200000    0.00000000E+00
  14     7.300000    0.00000000E+00
  15     7.400000    0.00000000E+00
  16     7.500000    0.00000000E+00
  17     7.600000    0.00000000E+00
  18     7.700000   -0.57331904E-03
  19     7.800000   -0.57331904E-03
  20     7.900000   -0.57331904E-03
  21     8.000000    0.55741012E-01
  22     8.100000   -0.63884085E-01
  23     8.200000   -0.52745213E-01
  24     8.300000   -0.92224108E-01
  25     8.400000   -0.92224108E-01
  26     8.500000   -0.11875495E+00
  27     8.600000   -0.16939921E+00
  28     8.700000   -0.38307868E+00
  29     8.800000   -0.38307868E+00
  30     8.900000   -0.72897223E+00
  31     9.000000   -0.12442028E+01
  32     9.100000   -0.16810147E+01
  33     9.200000   -0.16810147E+01
  34     9.300000   -0.16810147E+01
  35     9.400000   -0.16810147E+01
  36     9.500000   -0.19527970E+01
  37     9.600000   -0.24863531E+01
  38     9.700000   -0.28242511E+01
  39     9.800000   -0.49474185E+01
  40     9.900000   -0.62379002E+01
  41    10.000000   -0.87603888E+01
  42    10.100000   -0.99281505E+01
  43    10.200000   -0.12415107E+02
  44    10.300000   -0.12399661E+02
  45    10.400000   -0.12696962E+02
  46    10.500000   -0.14731755E+02
  47    10.600000   -0.18804044E+02
  48    10.700000   -0.10655963E+02
  49    10.800000   -0.13500377E+02
  50    10.900000   -0.26476911E+02
  51    11.000000   -0.41902942E+02
  52    11.100000   -0.55623632E+02
  53    11.200000   -0.58106355E+02
  54    11.300000   -0.68711218E+02
  55    11.400000   -0.86496666E+02
  56    11.500000   -0.10168320E+03
  57    11.600000   -0.10813992E+03
  58    11.700000   -0.10848458E+03
  59    11.800000   -0.15186292E+03
  60    11.900000   -0.16420078E+03
  61    12.000000   -0.20973386E+03
  62    12.100000   -0.13773326E+03
  63    12.200000   -0.38889821E+03
  64    12.300000   -0.42543329E+03
  65    12.400000   -0.43125479E+03
  66    12.500000   -0.43960784E+03
  67    12.600000   -0.50072780E+03
  68    12.700000   -0.51397752E+03
  69    12.800000   -0.60764588E+03
  70    12.900000   -0.64413023E+03
  71    13.000000   -0.66921086E+03
  72    13.100000   -0.71186594E+03
  73    13.200000   -0.73026393E+03
  74    13.300000   -0.91360909E+03
  75    13.400000   -0.84799787E+03
  76    13.500000   -0.88605890E+03
  77    13.600000   -0.89595988E+03
  78    13.700000   -0.10090648E+04
  79    13.800000   -0.93293662E+03
  80    13.900000   -0.12734823E+04
  81    14.000000   -0.11426758E+04
  82    14.100000   -0.11151595E+04
  83    14.200000   -0.10874332E+04
  84    14.300000   -0.11165066E+04
  85    14.400000   -0.11225290E+04
  86    14.500000   -0.94499783E+03
  87    14.600000   -0.71934831E+03
  88    14.700000   -0.50273998E+03
  89    14.800000   -0.54207363E+03
  90    14.900000   -0.61189766E+03
  91    15.000000   -0.50449132E+03
  92    15.100000   -0.31652653E+03
  93    15.200000   -0.15536344E+03
  94    15.300000   -0.48314645E+03
  95    15.400000   -0.50484657E+03
  96    15.500000   -0.45003358E+03
  97    15.600000   -0.41261266E+03
  98    15.700000   -0.43696723E+03
  99    15.800000   -0.22029353E+03
 100    15.900000   -0.26447492E+03
 101    16.000000   -0.24148952E+03
 102    16.100000   -0.29548772E+03
 103    16.200000   -0.31593125E+03
 104    16.300000   -0.35862468E+03
 105    16.400000   -0.26503101E+03
 106    16.500000   -0.22763609E+03
 107    16.600000    0.46408141E+02
 108    16.700000    0.11665648E+03
 109    16.800000    0.21156182E+03
 110    16.900000    0.79721052E+02
 111    17.000000    0.29237532E+03
 112    17.100000    0.30699486E+03
 113    17.200000    0.46912527E+03
 114    17.300000   -0.82539297E+03
 115    17.400000   -0.47286416E+03
 116    17.500000    0.59516308E+02
 117    17.600000    0.66921749E+02
 118    17.700000    0.21155057E+04
 119    17.800000    0.21220391E+04
 120    17.900000    0.21242705E+04
 121    18.000000    0.22192443E+04
 122    18.100000    0.17953608E+04
 123    18.200000    0.16587156E+04
 124    18.300000    0.16340593E+04
 125    18.400000    0.12827919E+04
 126    18.500000    0.71931946E+03
 127    18.600000    0.72463586E+03
 128    18.700000    0.72463586E+03
 129    18.800000    0.72463586E+03
 130    18.900000    0.72463586E+03
 131    19.000000    0.33075755E+03
 132    19.100000    0.33075755E+03
 133    19.200000    0.31258067E+03
 134    19.300000    0.29361416E+03
 135    19.400000    0.29076506E+03
 136    19.500000    0.57512766E+03
 137    19.600000    0.50324501E+03
 138    19.700000    0.49089869E+03
 139    19.800000    0.42445019E+03
 140    19.900000    0.45994778E+03
 141    20.000000    0.41080457E+03
 142    20.100000    0.30260743E+03
 143    20.200000    0.36753174E+03
 144    20.300000    0.36753174E+03
 145    20.400000    0.36753174E+03
 146    20.500000    0.33485057E+03
 147    20.600000    0.30843898E+03
 148    20.700000    0.27625430E+03
 149    20.800000    0.27567941E+03
 150    20.900000    0.27567941E+03
 151    21.000000    0.23660201E+03
 152    21.100000    0.24662500E+03
 153    21.200000    0.24662500E+03
 154    21.300000    0.23904763E+03
 155    21.400000    0.24433644E+03
 156    21.500000    0.51354804E+03
 157    21.600000    0.24363826E+03
 158    21.700000    0.26073974E+03
 159    21.800000    0.25574707E+03
 160    21.900000    0.25574707E+03
 161    22.000000    0.23970610E+03
 162    22.100000    0.24480177E+03
 163    22.200000    0.24480177E+03
 164    22.300000    0.24480177E+03
 165    22.400000    0.24480177E+03
 166    22.500000    0.24480177E+03
 167    22.600000    0.24480177E+03
 168    22.700000    0.24023863E+03
 169    22.800000    0.26148075E+03
 170    22.900000    0.26291508E+03
 171    23.000000    0.26537275E+03
 172    23.100000    0.26537275E+03
 173    23.200000    0.26877300E+03
 174    23.300000    0.27300559E+03
 175    23.400000    0.30672608E+03
 176    23.500000    0.31853092E+03
 177    23.600000    0.30610343E+03
 178    23.700000    0.30593824E+03
 179    23.800000    0.30499227E+03
 180    23.900000    0.31495933E+03
 181    24.000000    0.52634163E+03
 182    24.100000    0.41719636E+03
 183    24.200000    0.39892686E+03
 184    24.300000    0.37364535E+03
 185    24.400000    0.37302610E+03
 186    24.500000    0.43156407E+03
 187    24.600000    0.38518154E+03
 188    24.700000    0.57682222E+03
 189    24.800000    0.57474955E+03
 190    24.900000    0.56490409E+03
 191    25.000000    0.53979860E+03
 192    25.100000    0.52603056E+03
 193    25.200000    0.38664139E+03
 194    25.300000    0.40663273E+03
 195    25.400000    0.27106833E+03
 196    25.500000    0.27076939E+03
 197    25.600000    0.24590326E+03
 198    25.700000    0.34460223E+03
 199    25.800000    0.32905641E+03
 200    25.900000    0.27320761E+03
 201    26.000000    0.27516602E+03
